onset	duration	stim_type	identity	orientation	reaction_time	response
15.03	5	fixation	n/a	n/a	n/a	n/a
20.03	5	fixation	n/a	n/a	n/a	n/a
25.07	5	face	id2	a5	n/a	n/a
30.07	5	face	id2	a1	2.24	same
35.07	5	face	id4	a5	2.22	different
40.07	5	face	id3	a3	2.23	different
45.07	5	face	id1	a3	2.27	different
50.07	5	face	id2	a4	2.59	different
55.08	5	face	id4	a2	2.47	different
60.08	5	face	id3	a4	3.05	different
65.08	5	face	id1	a4	2.57	different
70.08	5	face	id4	a1	2.57	different
75.08	5	face	id2	a3	2.2	different
80.08	5	face	id4	a3	2.61	different
85.08	5	face	id1	a5	2.66	different
90.08	5	face	id3	a2	2.46	different
95.08	5	face	id3	a1	2.63	same
100.08	5	face	id2	a2	2.18	different
105.08	5	face	id3	a5	2.24	different
110.08	5	face	id4	a4	2.84	different
115.08	5	face	id1	a2	2.38	different
120.1	5	face	id1	a1	2.22	different
125.1	5	face	id1	a1	2.19	same
130.1	5	face	id1	a3	2.04	same
135.1	5	face	id4	a5	2.28	different
140.1	5	face	id4	a1	2.4	different
145.1	5	face	id4	a2	2.01	same
150.1	5	face	id2	a4	2.47	different
155.1	5	face	id4	a3	2.34	different
160.1	5	face	id3	a5	2.13	different
165.1	5	face	id2	a2	2.38	different
170.1	5	face	id3	a4	2.99	same
175.1	5	face	id4	a4	2.09	different
180.11	5	face	id3	a2	2.14	different
185.08	5	fixation	n/a	n/a	n/a	n/a
190.11	5	face	id1	a4	3.27	different
195.11	5	face	id2	a1	2.21	different
200.11	5	face	id3	a1	3.0	different
205.11	5	face	id1	a2	2.29	different
210.11	5	face	id2	a3	2.13	different
215.11	5	face	id3	a3	2.09	different
220.11	5	face	id1	a5	2.15	different
225.13	5	face	id2	a5	2.06	different
230.13	5	face	id2	a5	2.28	same
235.1	5	fixation	n/a	n/a	n/a	n/a
240.13	5	face	id3	a4	2.19	different
245.13	5	face	id3	a2	2.72	same
250.13	5	face	id4	a5	2.29	different
255.13	5	face	id4	a2	2.14	same
260.13	5	face	id1	a3	2.42	different
265.13	5	face	id4	a4	2.77	different
270.13	5	face	id2	a1	2.92	different
275.13	5	face	id1	a1	2.36	different
280.13	5	face	id4	a3	2.43	different
285.14	5	face	id1	a4	2.56	different
290.14	5	face	id1	a2	2.76	different
295.14	5	face	id3	a1	2.28	different
300.14	5	face	id3	a3	2.23	same
305.14	5	face	id2	a2	2.21	different
310.14	5	face	id2	a4	2.23	different
315.14	5	face	id3	a5	3.04	different
320.14	5	face	id1	a5	2.29	different
325.15	5	face	id2	a3	2.88	different
330.15	5	face	id4	a1	3.86	different
