onset	duration	stim_type	identity	orientation	reaction_time	response
15.08	5	face	id2	a2	n/a	n/a
20.08	5	face	id2	a2	1.99	same
25.05	5	fixation	n/a	n/a	n/a	n/a
30.08	5	face	id4	a4	2.65	different
35.08	5	face	id2	a4	2.14	different
40.08	5	face	id1	a5	2.18	different
45.09	5	face	id3	a1	2.21	different
50.09	5	face	id2	a5	2.18	different
55.09	5	face	id4	a2	2.22	different
60.09	5	face	id4	a5	1.97	same
65.09	5	face	id2	a1	2.15	different
70.09	5	face	id3	a5	2.3	different
75.1	5	face	id3	a4	2.03	same
80.1	5	face	id4	a1	2.61	different
85.1	5	face	id3	a3	2.3	different
90.1	5	face	id1	a2	2.06	different
95.1	5	face	id1	a3	1.98	same
100.09	5	face	id4	a3	1.94	different
105.11	5	face	id1	a4	2.1	different
110.11	5	face	id2	a3	2.31	different
115.11	5	face	id3	a2	2.37	different
120.11	5	face	id1	a1	1.98	different
125.1	5	face	id1	a1	2.04	same
130.07	5	fixation	n/a	n/a	n/a	n/a
135.1	5	face	id1	a2	2.17	same
140.12	5	face	id2	a2	2.25	different
145.12	5	face	id1	a4	2.0	different
150.11	5	face	id3	a4	2.37	different
155.11	5	face	id1	a3	2.29	different
160.11	5	face	id3	a3	2.3	different
165.11	5	face	id2	a4	2.45	different
170.13	5	face	id4	a1	2.3	different
175.12	5	face	id1	a5	2.1	different
180.12	5	face	id4	a4	2.28	different
185.12	5	face	id2	a1	2.22	different
190.12	5	face	id3	a1	2.33	different
195.12	5	face	id4	a2	1.82	different
200.12	5	face	id3	a2	1.91	different
205.13	5	face	id3	a5	2.03	different
210.13	5	face	id4	a3	2.01	different
215.13	5	face	id2	a5	2.4	different
220.13	5	face	id4	a5	2.05	different
225.13	5	face	id2	a3	1.99	different
230.13	5	face	id2	a3	2.49	same
235.1	5	fixation	n/a	n/a	n/a	n/a
240.14	5	face	id2	a4	2.32	different
245.14	5	face	id2	a1	2.06	same
250.14	5	face	id4	a2	2.02	different
255.14	5	face	id4	a4	2.09	same
260.15	5	face	id2	a2	1.98	different
265.15	5	face	id3	a5	2.32	different
270.15	5	face	id4	a5	1.98	different
275.15	5	face	id2	a5	2.26	different
280.15	5	face	id1	a4	2.33	different
285.14	5	face	id1	a3	2.2	different
290.14	5	face	id1	a1	2.02	same
295.16	5	face	id3	a1	1.94	different
300.16	5	face	id4	a1	2.37	different
305.16	5	face	id3	a4	2.24	different
310.15	5	face	id3	a2	1.87	different
315.15	5	face	id4	a3	2.02	different
320.15	5	face	id1	a5	2.03	different
325.17	5	face	id1	a2	2.3	different
330.17	5	face	id3	a3	2.21	different
