onset	duration	stim_type	identity	orientation	reaction_time	response
15.04	5	fixation	n/a	n/a	n/a	n/a
20.04	5	fixation	n/a	n/a	n/a	n/a
25.08	5	face	id2	a5	n/a	n/a
30.08	5	face	id1	a1	2.14	different
35.08	5	face	id4	a4	2.12	different
40.08	5	face	id1	a2	2.31	different
45.08	5	face	id3	a1	2.14	different
50.08	5	face	id1	a4	2.12	different
55.08	5	face	id1	a3	2.1	same
60.08	5	face	id4	a5	2.1	different
65.08	5	face	id4	a3	2.09	same
70.09	5	face	id2	a2	2.4	different
75.09	5	face	id2	a3	2.24	same
80.09	5	face	id4	a2	2.22	different
85.09	5	face	id2	a1	2.23	different
90.09	5	face	id1	a5	2.13	different
95.09	5	face	id3	a2	2.41	different
100.09	5	face	id4	a1	2.31	different
105.09	5	face	id3	a5	2.15	different
110.09	5	face	id3	a4	2.13	same
115.09	5	face	id2	a4	2.25	different
120.09	5	face	id3	a3	2.14	different
125.09	5	face	id3	a3	2.19	same
130.11	5	face	id3	a1	2.12	same
135.11	5	face	id4	a4	2.24	different
140.11	5	face	id2	a2	2.16	different
145.11	5	face	id1	a3	2.06	different
150.11	5	face	id1	a4	2.19	same
155.11	5	face	id4	a2	2.14	different
160.11	5	face	id3	a5	2.35	different
165.11	5	face	id4	a1	2.24	different
170.11	5	face	id4	a5	2.18	same
175.11	5	face	id3	a4	2.2	different
180.11	5	face	id1	a5	2.09	different
185.08	5	fixation	n/a	n/a	n/a	n/a
190.11	5	face	id4	a3	2.15	different
195.12	5	face	id1	a1	2.15	different
200.12	5	face	id3	a2	2.23	different
205.12	5	face	id2	a4	2.13	different
210.12	5	face	id2	a3	2.09	different
215.12	5	face	id1	a2	2.22	different
220.12	5	face	id2	a1	2.2	different
225.12	5	face	id2	a5	2.21	same
230.12	5	face	id2	a5	1.82	same
235.1	5	fixation	n/a	n/a	n/a	n/a
240.12	5	face	id4	a5	2.1	different
245.14	5	face	id1	a5	2.09	different
250.14	5	face	id4	a4	2.12	different
255.14	5	face	id1	a3	2.11	different
260.14	5	face	id3	a1	2.12	different
265.14	5	face	id3	a4	2.13	same
270.14	5	face	id1	a1	2.27	different
275.14	5	face	id3	a3	2.16	different
280.14	5	face	id4	a2	2.25	different
285.14	5	face	id4	a3	2.23	same
290.14	5	face	id2	a4	2.09	different
295.15	5	face	id3	a2	2.03	different
300.15	5	face	id1	a2	2.09	different
305.15	5	face	id4	a1	2.23	different
310.15	5	face	id1	a4	2.14	different
315.15	5	face	id3	a5	2.1	different
320.15	5	face	id2	a1	2.14	different
325.15	5	face	id2	a3	2.06	same
330.15	5	face	id2	a2	2.04	same
