onset	duration	stim_type	identity	orientation	reaction_time	response
15.08	5	face	id2	a2	2.78	same
20.08	5	face	id2	a2	2.69	different
25.05	5	fixation	n/a	n/a	n/a	n/a
30.09	5	face	id1	a1	3.18	same
35.09	5	face	id2	a5	3.24	same
40.09	5	face	id3	a4	3.59	different
45.09	5	face	id4	a3	2.6	different
50.08	5	face	id4	a5	2.34	same
55.08	5	face	id2	a1	2.63	different
60.1	5	face	id3	a5	2.43	different
65.1	5	face	id1	a3	2.4	different
70.1	5	face	id4	a1	2.53	different
75.09	5	face	id1	a2	2.39	different
80.09	5	face	id4	a2	2.27	different
85.09	5	face	id1	a4	2.47	different
90.09	5	face	id3	a1	2.45	different
95.11	5	face	id1	a5	2.54	different
100.1	5	face	id3	a3	2.5	different
105.1	5	face	id2	a3	3.04	different
110.1	5	face	id2	a4	2.53	same
115.1	5	face	id4	a4	2.49	different
120.1	5	face	id3	a2	2.32	different
125.11	5	face	id3	a2	2.22	same
130.11	5	face	id1	a5	2.32	different
135.11	5	face	id3	a5	2.44	different
140.11	5	face	id3	a3	2.22	same
145.08	5	fixation	n/a	n/a	n/a	n/a
150.11	5	face	id1	a3	2.51	different
155.12	5	face	id2	a3	2.55	different
160.12	5	face	id1	a1	2.53	different
165.12	5	face	id4	a1	2.52	different
170.12	5	face	id2	a4	2.35	different
175.12	5	face	id2	a5	2.35	same
180.12	5	face	id1	a2	2.35	different
185.13	5	face	id4	a4	2.24	different
190.13	5	face	id3	a4	2.26	different
195.13	5	face	id1	a4	2.23	different
200.13	5	face	id2	a2	2.26	different
205.13	5	face	id4	a3	2.24	different
210.12	5	face	id3	a1	2.3	different
215.12	5	face	id2	a1	2.25	different
220.14	5	face	id4	a5	2.2	different
225.14	5	face	id4	a2	2.31	same
230.14	5	face	id4	a2	2.43	different
235.1	5	fixation	n/a	n/a	n/a	n/a
240.13	5	face	id3	a5	2.55	different
245.13	5	face	id1	a5	2.45	different
250.15	5	face	id1	a1	2.14	same
255.15	5	face	id1	a3	2.35	same
260.14	5	face	id3	a3	2.23	different
265.14	5	face	id2	a5	2.35	different
270.14	5	face	id4	a1	2.37	different
275.14	5	face	id2	a3	2.26	different
280.14	5	face	id3	a4	2.25	different
285.15	5	face	id1	a2	2.21	different
290.15	5	face	id2	a4	2.18	different
295.15	5	face	id4	a3	2.38	different
300.15	5	face	id1	a4	2.35	different
305.15	5	face	id4	a4	2.4	different
310.16	5	face	id4	a5	2.11	same
315.16	5	face	id3	a2	2.34	different
320.16	5	face	id2	a2	2.19	different
325.16	5	face	id2	a1	2.48	same
330.16	5	face	id3	a1	2.63	different
