onset	duration	stim_type	identity	orientation	reaction_time	response
15.08	5	face	id3	a1	n/a	n/a
20.08	5	face	id3	a1	2.19	same
25.05	5	fixation	n/a	n/a	n/a	n/a
30.09	5	face	id4	a1	2.15	different
35.09	5	face	id1	a5	2.18	different
40.09	5	face	id2	a5	2.28	different
45.09	5	face	id3	a5	2.17	different
50.09	5	face	id2	a3	2.31	different
55.1	5	face	id4	a3	2.21	different
60.1	5	face	id1	a3	2.19	different
65.1	5	face	id2	a4	2.29	different
70.1	5	face	id1	a1	2.29	different
75.1	5	face	id1	a2	2.2	same
80.09	5	face	id3	a3	2.36	different
85.09	5	face	id3	a4	2.29	same
90.11	5	face	id4	a2	2.18	different
95.11	5	face	id4	a4	2.31	same
100.11	5	face	id2	a1	2.24	different
105.1	5	face	id3	a2	2.37	different
110.1	5	face	id4	a5	2.18	different
115.1	5	face	id2	a2	2.17	different
120.12	5	face	id1	a4	2.22	different
125.12	5	face	id1	a4	2.42	same
130.08	5	fixation	n/a	n/a	n/a	n/a
135.11	5	face	id1	a2	2.33	same
140.11	5	face	id1	a5	2.37	same
145.11	5	face	id3	a4	2.4	different
150.13	5	face	id3	a5	2.21	same
155.12	5	face	id2	a4	2.28	different
160.12	5	face	id4	a5	2.22	different
165.12	5	face	id1	a3	2.18	different
170.12	5	face	id4	a4	2.28	different
175.12	5	face	id1	a1	2.3	different
180.12	5	face	id4	a2	2.23	different
185.13	5	face	id3	a3	2.23	different
190.13	5	face	id4	a3	2.31	different
195.13	5	face	id4	a1	2.36	same
200.13	5	face	id3	a2	2.24	different
205.13	5	face	id2	a1	2.39	different
210.13	5	face	id2	a2	2.29	same
215.12	5	face	id2	a5	2.32	same
220.14	5	face	id3	a1	2.19	different
225.14	5	face	id2	a3	2.3	different
230.14	5	face	id2	a3	2.23	same
235.1	5	fixation	n/a	n/a	n/a	n/a
240.13	5	face	id4	a2	2.08	different
245.13	5	face	id1	a5	2.19	different
250.15	5	face	id4	a3	2.23	different
255.15	5	face	id3	a5	2.15	different
260.15	5	face	id4	a4	2.27	different
265.14	5	face	id2	a5	2.31	different
270.14	5	face	id1	a3	2.17	different
275.14	5	face	id3	a2	2.18	different
280.16	5	face	id1	a1	2.15	different
285.16	5	face	id1	a4	2.26	same
290.15	5	face	id3	a3	2.26	different
295.15	5	face	id4	a5	2.11	different
300.15	5	face	id1	a2	2.18	different
305.15	5	face	id2	a2	2.13	different
310.15	5	face	id3	a4	2.09	different
315.16	5	face	id3	a1	2.25	same
320.16	5	face	id4	a1	2.21	different
325.16	5	face	id2	a1	2.29	different
330.16	5	face	id2	a4	2.1	same
