onset	duration	stim_type	identity	orientation	reaction_time	response
15.07	5	face	id3	a2	n/a	n/a
20.09	5	face	id3	a2	2.19	same
25.05	5	fixation	n/a	n/a	n/a	n/a
30.08	5	face	id1	a3	1.99	different
35.08	5	face	id2	a3	2.06	different
40.08	5	face	id2	a1	2.04	same
45.09	5	face	id2	a5	2.13	same
50.09	5	face	id4	a2	2.12	different
55.09	5	face	id1	a2	2.16	different
60.09	5	face	id4	a5	2.15	different
65.09	5	face	id4	a3	2.12	same
70.09	5	face	id1	a4	2.01	different
75.09	5	face	id3	a3	2.18	different
80.1	5	face	id2	a2	2.17	different
85.1	5	face	id2	a4	2.04	same
90.1	5	face	id3	a1	2.0	different
95.1	5	face	id1	a5	2.05	different
100.1	5	face	id3	a5	1.96	different
105.09	5	face	id1	a1	2.25	different
110.11	5	face	id4	a4	2.11	different
115.11	5	face	id3	a4	1.9	different
120.11	5	face	id4	a1	2.29	different
125.11	5	face	id4	a1	2.14	same
130.08	5	fixation	n/a	n/a	n/a	n/a
135.1	5	face	id3	a1	2.02	different
140.12	5	face	id3	a2	2.07	same
145.12	5	face	id1	a1	2.31	different
150.12	5	face	id3	a3	2.1	different
155.11	5	face	id1	a5	2.07	different
160.11	5	face	id2	a4	2.06	different
165.11	5	face	id2	a3	2.02	same
170.13	5	face	id2	a2	2.25	same
175.13	5	face	id2	a1	2.35	same
180.12	5	face	id1	a3	2.09	different
185.12	5	face	id4	a3	2.07	different
190.12	5	face	id2	a5	2.13	different
195.12	5	face	id1	a2	2.14	different
200.14	5	face	id3	a4	2.05	different
205.13	5	face	id1	a4	2.28	different
210.13	5	face	id3	a5	2.1	different
215.13	5	face	id4	a2	2.19	different
220.13	5	face	id4	a5	2.15	same
225.13	5	face	id4	a4	2.15	same
230.13	5	face	id4	a4	2.12	same
235.1	5	fixation	n/a	n/a	n/a	n/a
240.14	5	face	id2	a3	2.01	different
245.14	5	face	id4	a3	2.03	different
250.14	5	face	id1	a2	2.06	different
255.14	5	face	id1	a3	1.99	same
260.14	5	face	id3	a2	2.14	different
265.15	5	face	id1	a4	2.11	different
270.15	5	face	id4	a5	2.15	different
275.15	5	face	id4	a2	2.11	same
280.15	5	face	id1	a1	2.07	different
285.15	5	face	id1	a5	2.02	same
290.16	5	face	id4	a1	2.07	different
295.16	5	face	id2	a5	2.07	different
300.16	5	face	id2	a2	2.01	same
305.16	5	face	id3	a3	2.05	different
310.16	5	face	id3	a4	2.1	same
315.15	5	face	id3	a5	2.07	same
320.15	5	face	id2	a1	2.11	different
325.17	5	face	id3	a1	2.11	different
330.17	5	face	id2	a4	2.02	different
