onset	duration	stim_type	identity	orientation	reaction_time	response
15.08	5	face	id1	a2	n/a	n/a
20.08	5	face	id1	a2	2.0	same
25.05	5	fixation	n/a	n/a	n/a	n/a
30.08	5	face	id3	a4	2.13	different
35.09	5	face	id2	a4	1.97	different
40.09	5	face	id4	a2	1.95	different
45.09	5	face	id3	a1	1.9	different
50.09	5	face	id2	a1	2.19	different
55.08	5	face	id3	a2	2.0	different
60.1	5	face	id2	a3	1.95	different
65.1	5	face	id2	a2	1.8	different
70.1	5	face	id3	a3	2.04	different
75.1	5	face	id4	a3	2.04	different
80.09	5	face	id1	a3	1.96	different
85.09	5	face	id1	a4	1.86	same
90.09	5	face	id4	a5	1.88	different
95.11	5	face	id1	a1	2.02	different
100.11	5	face	id3	a5	1.94	different
105.1	5	face	id2	a5	2.04	different
110.1	5	face	id1	a5	1.9	different
115.1	5	face	id4	a1	1.92	different
120.1	5	face	id4	a4	1.84	same
125.12	5	face	id4	a4	1.88	same
130.08	5	fixation	n/a	n/a	n/a	n/a
135.11	5	face	id4	a3	1.94	same
140.11	5	face	id2	a4	2.09	different
145.11	5	face	id1	a4	2.01	different
150.11	5	face	id3	a1	2.0	different
155.12	5	face	id2	a2	2.01	different
160.12	5	face	id1	a5	1.9	different
165.12	5	face	id2	a3	1.83	different
170.12	5	face	id1	a1	1.89	different
175.12	5	face	id3	a3	1.88	different
180.12	5	face	id4	a5	1.81	different
185.13	5	face	id1	a3	1.81	different
190.13	5	face	id3	a2	1.87	different
195.13	5	face	id3	a4	1.84	same
200.13	5	face	id2	a5	1.84	different
205.13	5	face	id3	a5	1.99	different
210.13	5	face	id4	a1	1.85	different
215.12	5	face	id4	a2	1.88	same
220.14	5	face	id1	a2	1.9	different
225.14	5	face	id2	a1	1.95	different
230.14	5	face	id2	a1	1.94	same
235.1	5	fixation	n/a	n/a	n/a	n/a
240.13	5	face	id4	a5	1.99	different
245.15	5	face	id2	a4	1.89	different
250.15	5	face	id3	a2	2.0	different
255.15	5	face	id3	a1	2.02	same
260.15	5	face	id1	a1	1.89	different
265.14	5	face	id4	a2	1.82	different
270.14	5	face	id2	a3	2.04	different
275.16	5	face	id2	a5	2.05	same
280.16	5	face	id3	a3	1.96	different
285.16	5	face	id4	a4	2.23	different
290.15	5	face	id1	a3	2.0	different
295.15	5	face	id1	a5	1.91	different
300.15	5	face	id4	a3	1.89	different
305.15	5	face	id4	a1	2.42	same
310.17	5	face	id1	a4	2.04	different
315.16	5	face	id1	a2	1.96	same
320.16	5	face	id3	a4	2.01	different
325.16	5	face	id3	a5	1.95	same
330.16	5	face	id2	a2	1.93	different
